CTI1   

DESCRIPTOR "Argyll Calibration Target chart information 1"
ORIGINATOR "Argyll targen"
CREATED "Mon Feb 06 20:38:30 2023"
SINGLE_DIM_STEPS "5"
COMP_GREY_STEPS "52"
MULTI_DIM_STEPS "5"
COLOR_REP "RGB"
TARGET_INSTRUMENT "X-Rite i1 DisplayPro, ColorMunki Display"
DISPLAY_TYPE_REFRESH "NO"
DISPLAY_TYPE_BASE_ID "1"
INSTRUMENT_TYPE_SPECTRAL "NO"
NORMALIZED_TO_Y_100 "YES"
VIDEO_LUT_CALIBRATION_POSSIBLE "YES"
OBSERVER "1931_2"
USE_BLACK_POINT_COMPENSATION "NO"
BLACK_POINT_CORRECTION "0.0"
HIRES_B2A "YES"
HIRES_B2A_SIZE "-1"
SMOOTH_B2A "YES"
PATCH_SEQUENCE "OPTIMIZE_DISPLAY_RESPONSE_DELAY"

NUMBER_OF_FIELDS 7
BEGIN_DATA_FORMAT
SAMPLE_ID RGB_R RGB_G RGB_B XYZ_X XYZ_Y XYZ_Z
END_DATA_FORMAT

NUMBER_OF_SETS 175
BEGIN_DATA
1 100.0000 100.0000 100.0000 94.78256 100.0000 116.2832
2 100.0000 100.0000 75.00000 85.75143 97.06607 68.32000
3 100.0000 100.0000 100.0000 94.76878 100.0111 116.2840
4 100.0000 100.0000 100.0000 94.79323 100.0003 116.3340
5 0.000000 0.000000 0.000000 0.115175 0.102023 0.272894
6 25.00000 0.000000 0.000000 1.939970 1.092440 0.323215
7 50.00000 0.000000 0.000000 7.535860 4.131299 0.477236
8 75.00000 0.000000 0.000000 18.55341 10.11253 0.782446
9 100.0000 0.000000 0.000000 36.63250 19.92321 1.293449
10 100.0000 0.000000 25.00000 37.71665 20.28398 6.725267
11 100.0000 25.00000 25.00000 39.82476 24.35479 7.479329
12 100.0000 50.00000 25.00000 46.27257 36.65916 9.380132
13 100.0000 75.00000 25.00000 58.06572 59.32863 12.81333
14 0.000000 0.000000 25.00000 1.040111 0.400900 5.190111
15 25.00000 0.000000 25.00000 2.916991 1.407196 5.507130
16 75.00000 0.000000 100.0000 38.15232 16.56713 102.6034
17 100.0000 0.000000 100.0000 55.89347 26.12493 104.4793
18 1.960800 1.960800 1.960800 0.209248 0.202550 0.375372
19 3.921600 3.921600 3.921600 0.395278 0.400734 0.571509
20 5.882400 5.882400 5.882400 0.556091 0.566105 0.809789
21 7.843100 7.843100 7.843100 0.760232 0.782049 1.012613
22 9.803900 9.803900 9.803900 1.053362 1.085807 1.386714
23 11.76500 11.76500 11.76500 1.295816 1.338236 1.704879
24 13.72600 13.72600 13.72600 1.661000 1.718863 2.178086
25 15.68600 15.68600 15.68600 2.119078 2.216288 2.684425
26 17.64700 17.64700 17.64700 2.562731 2.724861 3.071851
27 19.60800 19.60800 19.60800 3.129204 3.271253 3.954097
28 21.56900 21.56900 21.56900 3.650653 3.842124 4.644203
29 23.52900 23.52900 23.52900 4.352461 4.590475 5.375979
30 27.45100 27.45100 27.45100 5.788035 6.101246 7.229197
31 29.41200 29.41200 29.41200 6.634678 7.002218 8.209650
32 31.37300 31.37300 31.37300 7.739675 8.157046 9.571405
33 33.33300 33.33300 33.33300 8.645169 9.056842 10.65292
34 35.29400 35.29400 35.29400 9.819829 10.26240 12.14079
35 37.25500 37.25500 37.25500 11.08067 11.64237 13.73413
36 39.21600 39.21600 39.21600 12.20198 12.84626 14.96777
37 41.17600 41.17600 41.17600 13.45191 14.10273 16.60851
38 43.13700 43.13700 43.13700 14.81104 15.68601 18.20560
39 45.09800 45.09800 45.09800 16.41097 17.31633 20.20621
40 47.05900 47.05900 47.05900 17.85697 18.92484 21.69918
41 49.02000 49.02000 49.02000 19.58688 20.64233 24.31264
42 50.98000 50.98000 50.98000 21.25023 22.41781 26.46960
43 52.94100 52.94100 52.94100 23.08303 24.34976 28.52429
44 54.90200 54.90200 54.90200 25.00505 26.45070 30.99114
45 56.86300 56.86300 56.86300 27.23977 28.72959 33.81250
46 58.82400 58.82400 58.82400 29.26758 30.71866 36.11896
47 60.78400 60.78400 60.78400 31.41517 33.04090 38.79092
48 62.74500 62.74500 62.74500 33.59251 35.35556 41.71751
49 64.70600 64.70600 64.70600 35.97393 37.76165 44.48748
50 66.66700 66.66700 66.66700 38.18839 40.14304 47.15937
51 68.62700 68.62700 68.62700 41.22583 43.39614 50.85831
52 70.58800 70.58800 70.58800 43.89563 46.31186 53.84103
53 72.54900 72.54900 72.54900 46.35263 49.02724 57.28399
54 76.47100 76.47100 76.47100 51.70580 54.53269 63.69865
55 78.43100 78.43100 78.43100 54.70473 57.49873 68.15664
56 80.39200 80.39200 80.39200 57.99781 61.08268 71.85878
57 82.35300 82.35300 82.35300 61.19487 64.47189 75.45508
58 84.31400 84.31400 84.31400 64.96961 68.47687 80.23087
59 86.27500 86.27500 86.27500 68.17282 71.84926 84.08222
60 88.23500 88.23500 88.23500 71.61400 75.58901 87.58040
61 90.19600 90.19600 90.19600 75.22435 79.31754 92.76130
62 92.15700 92.15700 92.15700 79.05690 83.34735 97.94543
63 94.11800 94.11800 94.11800 82.13331 86.61514 100.7740
64 96.07800 96.07800 96.07800 86.89756 91.59714 107.1380
65 98.03900 98.03900 98.03900 90.47824 95.32723 111.7060
66 25.00000 25.00000 0.000000 3.847241 4.799148 0.862133
67 50.00000 25.00000 0.000000 9.746039 8.030164 1.031254
68 75.00000 25.00000 0.000000 20.74948 14.05201 1.344151
69 100.0000 25.00000 0.000000 38.51964 23.77288 1.864281
70 100.0000 50.00000 0.000000 45.07465 36.28935 3.698430
71 50.00000 50.00000 0.000000 16.13475 20.22105 2.816272
72 75.00000 50.00000 0.000000 26.99140 26.10416 3.113581
73 25.00000 50.00000 0.000000 10.10826 16.77729 2.616185
74 25.00000 75.00000 0.000000 21.89885 39.11122 5.883711
75 50.00000 75.00000 0.000000 27.86949 42.63085 6.103501
76 75.00000 75.00000 0.000000 38.77483 48.38630 6.373494
77 100.0000 75.00000 0.000000 56.60178 58.55303 6.972532
78 25.00000 100.0000 0.000000 40.27074 74.26335 11.06479
79 50.00000 100.0000 0.000000 46.27913 77.63495 11.25159
80 75.00000 100.0000 0.000000 57.16429 83.57902 11.54540
81 100.0000 100.0000 0.000000 74.87451 93.61647 12.15923
82 100.0000 100.0000 25.00000 76.00445 93.75236 17.96151
83 50.00000 0.000000 25.00000 8.594901 4.499443 5.512611
84 50.00000 25.00000 50.00000 14.11781 9.574970 23.34490
85 0.000000 25.00000 0.000000 2.007554 3.720930 0.798202
86 0.000000 25.00000 25.00000 2.985563 4.083121 5.902042
87 25.49000 25.49000 25.49000 5.120864 5.380079 6.327115
88 50.00000 25.00000 25.00000 10.77975 8.380848 6.335706
89 75.00000 25.00000 25.00000 21.97943 14.49991 6.813305
90 0.000000 50.00000 0.000000 8.283267 15.68981 2.553180
91 0.000000 50.00000 25.00000 9.257348 15.95003 7.872202
92 25.00000 50.00000 25.00000 11.31302 17.28749 8.005291
93 50.00000 50.00000 25.00000 17.19335 20.56950 8.059947
94 75.00000 50.00000 25.00000 28.20992 26.55170 8.528302
95 0.000000 75.00000 0.000000 20.00998 38.04779 5.828625
96 0.000000 75.00000 25.00000 20.98110 38.29941 11.24643
97 25.00000 75.00000 25.00000 23.07070 39.66646 11.38180
98 50.00000 75.00000 25.00000 28.91864 42.84733 11.51442
99 75.00000 75.00000 25.00000 39.95315 49.02486 11.89594
100 0.000000 100.0000 0.000000 38.33457 73.06678 10.99663
101 0.000000 100.0000 25.00000 39.41076 73.49339 16.60985
102 25.00000 100.0000 25.00000 41.40602 74.62571 16.74031
103 50.00000 100.0000 25.00000 47.53970 78.05527 17.02598
104 75.00000 100.0000 25.00000 58.48717 84.07838 17.25154
105 0.000000 0.000000 50.00000 4.222699 1.439835 22.09672
106 25.00000 0.000000 50.00000 6.058315 2.432703 22.17625
107 50.00000 0.000000 50.00000 11.88933 5.598221 22.25772
108 75.00000 0.000000 50.00000 22.80385 11.52301 22.73682
109 100.0000 0.000000 50.00000 40.66972 21.20930 23.33431
110 100.0000 0.000000 75.00000 46.47555 23.10380 53.91593
111 100.0000 25.00000 75.00000 48.72155 27.17944 55.97785
112 75.00000 0.000000 25.00000 19.60383 10.46650 6.020474
113 75.00000 25.00000 50.00000 25.13184 15.54008 24.02695
114 100.0000 25.00000 50.00000 42.88747 25.31508 24.63072
115 25.00000 25.00000 50.00000 8.151583 6.224711 23.31257
116 25.00000 50.00000 50.00000 14.49477 18.34258 24.95363
117 75.00000 50.00000 50.00000 31.64667 27.82900 25.82194
118 100.0000 50.00000 50.00000 49.52008 37.86002 27.14682
119 100.0000 50.00000 75.00000 55.29343 39.64841 58.74907
120 25.00000 75.00000 50.00000 26.24885 40.68139 28.40588
121 50.00000 75.00000 50.00000 32.24962 43.97265 28.74216
122 75.00000 75.00000 50.00000 43.36052 50.11251 29.58053
123 100.0000 75.00000 50.00000 61.18249 60.22503 30.65388
124 100.0000 75.00000 75.00000 66.96216 61.79281 62.14632
125 25.00000 100.0000 50.00000 44.76978 75.73804 34.52936
126 50.00000 100.0000 50.00000 50.77282 79.03788 34.76354
127 75.00000 100.0000 50.00000 61.76417 84.96773 35.13816
128 100.0000 100.0000 50.00000 79.28079 94.59916 36.40948
129 25.00000 0.000000 75.00000 11.92351 4.355210 52.96162
130 50.00000 0.000000 75.00000 17.77679 7.526633 53.24724
131 75.00000 0.000000 75.00000 28.92476 13.54749 54.54098
132 75.00000 25.00000 75.00000 31.05422 17.45824 55.11740
133 75.00000 50.00000 100.0000 46.71975 32.69935 105.6911
134 25.00000 25.00000 75.00000 13.99699 8.131962 54.14920
135 25.00000 50.00000 100.0000 29.55826 23.31577 104.7241
136 0.000000 25.00000 50.00000 6.196814 5.079131 23.12929
137 0.000000 25.00000 75.00000 12.15674 7.124635 54.47860
138 0.000000 50.00000 75.00000 18.21915 18.93036 55.29931
139 25.00000 50.00000 75.00000 20.42156 20.09819 56.90825
140 50.00000 50.00000 75.00000 26.43131 23.42978 57.19443
141 75.00000 50.00000 75.00000 37.53300 29.78360 57.11932
142 74.51000 74.51000 74.51000 48.70456 51.37234 60.05283
143 0.000000 75.00000 75.00000 30.14390 41.28051 59.92340
144 25.00000 75.00000 75.00000 32.40505 42.82464 60.57101
145 50.00000 75.00000 75.00000 38.40467 46.01875 61.31337
146 0.000000 75.00000 50.00000 24.32157 39.51966 28.57934
147 0.000000 100.0000 50.00000 42.66388 74.44208 34.24337
148 0.000000 100.0000 75.00000 48.43177 76.09810 65.38098
149 25.00000 100.0000 75.00000 50.66429 77.56123 66.07793
150 50.00000 100.0000 75.00000 56.74682 80.81198 66.71734
151 75.00000 100.0000 75.00000 67.80804 86.98732 67.04681
152 75.00000 100.0000 100.0000 76.84311 89.51236 116.0707
153 25.00000 0.000000 100.0000 21.16020 7.346017 101.8925
154 50.00000 0.000000 100.0000 27.03932 10.54789 102.1271
155 0.000000 0.000000 75.00000 10.11796 3.353779 53.39248
156 0.000000 0.000000 100.0000 19.01918 6.237389 100.6929
157 0.000000 25.00000 100.0000 21.42651 10.04049 103.9175
158 25.00000 25.00000 100.0000 23.41672 11.29280 103.7452
159 50.00000 25.00000 100.0000 29.35994 14.49065 103.9266
160 75.00000 25.00000 100.0000 40.56166 20.62430 104.6597
161 100.0000 25.00000 100.0000 58.09828 30.22179 105.8270
162 100.0000 50.00000 100.0000 64.27312 42.66385 106.4607
163 50.00000 25.00000 75.00000 20.11934 11.51863 54.94537
164 50.00000 50.00000 100.0000 35.94836 26.87047 105.7735
165 0.000000 50.00000 50.00000 12.37098 16.95993 24.40952
166 0.000000 50.00000 100.0000 27.80030 22.13078 105.8637
167 0.000000 75.00000 100.0000 39.41902 44.38527 108.8568
168 25.00000 75.00000 100.0000 41.83967 45.88581 110.4702
169 50.00000 75.00000 100.0000 47.72002 49.17881 109.9405
170 75.00000 75.00000 100.0000 58.61137 55.13709 109.8586
171 100.0000 75.00000 100.0000 76.27894 64.98145 110.6209
172 0.000000 100.0000 100.0000 58.01769 79.43885 115.6429
173 25.00000 100.0000 100.0000 59.91805 80.28785 115.9715
174 50.00000 100.0000 100.0000 66.03295 83.84247 115.5968
175 100.0000 100.0000 100.0000 94.25801 99.40396 116.4328
END_DATA
